text,image,pos,argument,words,question,instr_data.thisRepN,instr_data.thisTrialN,instr_data.thisN,instr_data.thisIndex,arguments_data.thisRepN,arguments_data.thisTrialN,arguments_data.thisN,arguments_data.thisIndex,word_data.thisRepN,word_data.thisTrialN,word_data.thisN,word_data.thisIndex,questions.thisRepN,questions.thisTrialN,questions.thisN,questions.thisIndex,rating.keys,rating.rt,date,frameRate,expName,session,participant,
"We are piloting a new method for group-grading exam questions. In this first section you will be reading aloud several arguments taken from LAW 204, Written and Oral Advocacy, taught at the UC Berkeley Law School.",nothing.jpg,"[20, 20]",,,,0,0,0,0,,,,,,,,,,,,,,,2014_Oct_02_0139,49.6505030267,Arguments,001,999,
"You will read through student responses taken from the essay portion of the midterm exam. In order to give an objective analysis, you will be asked to read the essay responses aloud. In addition, sentences from each essay response will be presented phrase-by-phrase, not all at once.",nothing.jpg,"[20, 20]",,,,0,1,1,1,,,,,,,,,,,,,,,2014_Oct_02_0139,49.6505030267,Arguments,001,999,
"Handwriting has been cropped and digitized into snippets like the one below, each of which contain individual phrases:",words\example.jpg,"[0, 0]",,,,0,2,2,2,,,,,,,,,,,,,,,2014_Oct_02_0139,49.6505030267,Arguments,001,999,
These snippets of text will appear on the screen for only one second each. When each phrase appears please read it out loud.,nothing.jpg,"[20, 20]",,,,0,3,3,3,,,,,,,,,,,,,,,2014_Oct_02_0139,49.6505030267,Arguments,001,999,
"After you have read through each argument, you will be asked several questions about the complete argument. Please try to answer these questions as objectively as possible, as if you were a teaching assistant grading this exam.",nothing.jpg,"[20, 20]",,,,0,4,4,4,,,,,,,,,,,,,,,2014_Oct_02_0139,49.6505030267,Arguments,001,999,
"After this slide you'll begin a practice session in order to familiarize yourself with how to evaluate these arguments. An experimenter will stand by to correct you if you make any mistakes. If you have any questions, please ask the experimenter now.",nothing.jpg,"[20, 20]",,,,0,5,5,5,,,,,,,,,,,,,,,2014_Oct_02_0139,49.6505030267,Arguments,001,999,
,,,"arg2clean.csv","words\arg2clean\1.png",,,,,,0,0,0,2,0,0,0,0,,,,,,,2014_Oct_02_0139,49.6505030267,Arguments,001,999,
,,,"arg2clean.csv","words\arg2clean\2.png",,,,,,0,0,0,2,0,1,1,1,,,,,,,2014_Oct_02_0139,49.6505030267,Arguments,001,999,
,,,"arg2clean.csv","words\arg2clean\3.png",,,,,,0,0,0,2,0,2,2,2,,,,,,,2014_Oct_02_0139,49.6505030267,Arguments,001,999,
,,,"arg2clean.csv","words\arg2clean\4.png",,,,,,0,0,0,2,0,3,3,3,,,,,,,2014_Oct_02_0139,49.6505030267,Arguments,001,999,
,,,"arg2clean.csv","words\arg2clean\5.png",,,,,,0,0,0,2,0,4,4,4,,,,,,,2014_Oct_02_0139,49.6505030267,Arguments,001,999,
,,,"arg2clean.csv","words\arg2clean\6.png",,,,,,0,0,0,2,0,5,5,5,,,,,,,2014_Oct_02_0139,49.6505030267,Arguments,001,999,
,,,"arg2clean.csv","words\arg2clean\7.png",,,,,,0,0,0,2,0,6,6,6,,,,,,,2014_Oct_02_0139,49.6505030267,Arguments,001,999,
,,,"arg2clean.csv","words\arg2clean\8.png",,,,,,0,0,0,2,0,7,7,7,,,,,,,2014_Oct_02_0139,49.6505030267,Arguments,001,999,
,,,"arg2clean.csv","words\arg2clean\9.png",,,,,,0,0,0,2,0,8,8,8,,,,,,,2014_Oct_02_0139,49.6505030267,Arguments,001,999,
,,,"arg2clean.csv","words\arg2clean\10.png",,,,,,0,0,0,2,0,9,9,9,,,,,,,2014_Oct_02_0139,49.6505030267,Arguments,001,999,
,,,"arg2clean.csv","words\arg2clean\11.png",,,,,,0,0,0,2,0,10,10,10,,,,,,,2014_Oct_02_0139,49.6505030267,Arguments,001,999,
,,,"arg2clean.csv","words\arg2clean\12.png",,,,,,0,0,0,2,0,11,11,11,,,,,,,2014_Oct_02_0139,49.6505030267,Arguments,001,999,
,,,"arg2clean.csv","words\arg2clean\13.png",,,,,,0,0,0,2,0,12,12,12,,,,,,,2014_Oct_02_0139,49.6505030267,Arguments,001,999,
,,,"arg2clean.csv","words\arg2clean\14.png",,,,,,0,0,0,2,0,13,13,13,,,,,,,2014_Oct_02_0139,49.6505030267,Arguments,001,999,
,,,"arg2clean.csv","words\arg2clean\15.png",,,,,,0,0,0,2,0,14,14,14,,,,,,,2014_Oct_02_0139,49.6505030267,Arguments,001,999,
,,,"arg2clean.csv","words\arg2clean\16.png",,,,,,0,0,0,2,0,15,15,15,,,,,,,2014_Oct_02_0139,49.6505030267,Arguments,001,999,
,,,"arg2clean.csv","words\arg2clean\17.png",,,,,,0,0,0,2,0,16,16,16,,,,,,,2014_Oct_02_0139,49.6505030267,Arguments,001,999,
,,,"arg2clean.csv","words\arg2clean\18.png",,,,,,0,0,0,2,0,17,17,17,,,,,,,2014_Oct_02_0139,49.6505030267,Arguments,001,999,
,,,"arg2clean.csv","words\arg2clean\19.png",,,,,,0,0,0,2,0,18,18,18,,,,,,,2014_Oct_02_0139,49.6505030267,Arguments,001,999,
,,,"arg2clean.csv","words\arg2clean\20.png",,,,,,0,0,0,2,0,19,19,19,,,,,,,2014_Oct_02_0139,49.6505030267,Arguments,001,999,
,,,"arg2clean.csv","words\arg2clean\21.png",,,,,,0,0,0,2,0,20,20,20,,,,,,,2014_Oct_02_0139,49.6505030267,Arguments,001,999,
,,,"arg2clean.csv","words\arg2clean\22.png",,,,,,0,0,0,2,0,21,21,21,,,,,,,2014_Oct_02_0139,49.6505030267,Arguments,001,999,
,,,"arg2clean.csv","words\arg2clean\23.png",,,,,,0,0,0,2,0,22,22,22,,,,,,,2014_Oct_02_0139,49.6505030267,Arguments,001,999,
,,,"arg2clean.csv","words\arg2clean\24.png",,,,,,0,0,0,2,0,23,23,23,,,,,,,2014_Oct_02_0139,49.6505030267,Arguments,001,999,
,,,"arg2clean.csv","words\arg2clean\25.png",,,,,,0,0,0,2,0,24,24,24,,,,,,,2014_Oct_02_0139,49.6505030267,Arguments,001,999,
,,,"arg2clean.csv","words\arg2clean\26.png",,,,,,0,0,0,2,0,25,25,25,,,,,,,2014_Oct_02_0139,49.6505030267,Arguments,001,999,
,,,"arg2clean.csv","words\arg2clean\27.png",,,,,,0,0,0,2,0,26,26,26,,,,,,,2014_Oct_02_0139,49.6505030267,Arguments,001,999,
,,,"arg2clean.csv","words\arg2clean\28.png",,,,,,0,0,0,2,0,27,27,27,,,,,,,2014_Oct_02_0139,49.6505030267,Arguments,001,999,
,,,"arg2clean.csv","words\arg2clean\29.png",,,,,,0,0,0,2,0,28,28,28,,,,,,,2014_Oct_02_0139,49.6505030267,Arguments,001,999,
,,,"arg2clean.csv","words\arg2clean\30.png",,,,,,0,0,0,2,0,29,29,29,,,,,,,2014_Oct_02_0139,49.6505030267,Arguments,001,999,
,,,"arg2clean.csv","words\arg2clean\31.png",,,,,,0,0,0,2,0,30,30,30,,,,,,,2014_Oct_02_0139,49.6505030267,Arguments,001,999,
,,,"arg2clean.csv","words\arg2clean\32.png",,,,,,0,0,0,2,0,31,31,31,,,,,,,2014_Oct_02_0139,49.6505030267,Arguments,001,999,
,,,"arg2clean.csv","words\arg2clean\33.png",,,,,,0,0,0,2,0,32,32,32,,,,,,,2014_Oct_02_0139,49.6505030267,Arguments,001,999,
,,,"arg2clean.csv","words\arg2clean\34.png",,,,,,0,0,0,2,0,33,33,33,,,,,,,2014_Oct_02_0139,49.6505030267,Arguments,001,999,
,,,"arg2clean.csv","words\arg2clean\35.png",,,,,,0,0,0,2,0,34,34,34,,,,,,,2014_Oct_02_0139,49.6505030267,Arguments,001,999,
,,,"arg2clean.csv","words\arg2clean\36.png",,,,,,0,0,0,2,0,35,35,35,,,,,,,2014_Oct_02_0139,49.6505030267,Arguments,001,999,
,,,"arg2clean.csv","words\arg2clean\37.png",,,,,,0,0,0,2,0,36,36,36,,,,,,,2014_Oct_02_0139,49.6505030267,Arguments,001,999,
,,,"arg2clean.csv","words\arg2clean\38.png",,,,,,0,0,0,2,0,37,37,37,,,,,,,2014_Oct_02_0139,49.6505030267,Arguments,001,999,
,,,"arg2clean.csv","words\arg2clean\39.png",,,,,,0,0,0,2,0,38,38,38,,,,,,,2014_Oct_02_0139,49.6505030267,Arguments,001,999,
,,,"arg2clean.csv","words\arg2clean\40.png",,,,,,0,0,0,2,0,39,39,39,,,,,,,2014_Oct_02_0139,49.6505030267,Arguments,001,999,
,,,"arg2clean.csv","words\arg2clean\41.png",,,,,,0,0,0,2,0,40,40,40,,,,,,,2014_Oct_02_0139,49.6505030267,Arguments,001,999,
,,,"arg2clean.csv","words\arg2clean\42.png",,,,,,0,0,0,2,0,41,41,41,,,,,,,2014_Oct_02_0139,49.6505030267,Arguments,001,999,
,,,"arg2clean.csv","words\arg2clean\43.png",,,,,,0,0,0,2,0,42,42,42,,,,,,,2014_Oct_02_0139,49.6505030267,Arguments,001,999,
,,,"arg2clean.csv","words\arg2clean\44.png",,,,,,0,0,0,2,0,43,43,43,,,,,,,2014_Oct_02_0139,49.6505030267,Arguments,001,999,
,,,"arg2clean.csv","words\arg2clean\45.png",,,,,,0,0,0,2,0,44,44,44,,,,,,,2014_Oct_02_0139,49.6505030267,Arguments,001,999,
,,,"arg2clean.csv","words\arg2clean\46.png",,,,,,0,0,0,2,0,45,45,45,,,,,,,2014_Oct_02_0139,49.6505030267,Arguments,001,999,
,,,"arg2clean.csv","words\arg2clean\47.png",,,,,,0,0,0,2,0,46,46,46,,,,,,,2014_Oct_02_0139,49.6505030267,Arguments,001,999,
,,,"arg2clean.csv","words\arg2clean\48.png",,,,,,0,0,0,2,0,47,47,47,,,,,,,2014_Oct_02_0139,49.6505030267,Arguments,001,999,
,,,"arg2clean.csv","words\arg2clean\49.png",,,,,,0,0,0,2,0,48,48,48,,,,,,,2014_Oct_02_0139,49.6505030267,Arguments,001,999,
,,,"arg2clean.csv",,"This argument was convincing.",,,,,0,0,0,2,,,,,0,0,0,0,9,17.679979125,2014_Oct_02_0139,49.6505030267,Arguments,001,999,
,,,"arg2clean.csv",,"There were logical flaws in this argument.",,,,,0,0,0,2,,,,,0,1,1,1,9,0.161332382727,2014_Oct_02_0139,49.6505030267,Arguments,001,999,
,,,"arg2clean.csv",,"This argument might be wrong but it was well argued nonetheless.",,,,,0,0,0,2,,,,,0,2,2,3,9,0.141384035981,2014_Oct_02_0139,49.6505030267,Arguments,001,999,
,,,"arg2clean.csv",,"This was a well formed argument.",,,,,0,0,0,2,,,,,0,3,3,2,9,0.0808186444824,2014_Oct_02_0139,49.6505030267,Arguments,001,999,
,,,"arg2clean.csv",,"This argument was unconvincing.",,,,,0,0,0,2,,,,,0,4,4,4,9,0.141158438239,2014_Oct_02_0139,49.6505030267,Arguments,001,999,
,,,"arg2clean.csv",,,,,,,0,0,0,2,,,,,,,,,,,2014_Oct_02_0139,49.6505030267,Arguments,001,999,
,,,"clear_01.csv","words\clear_this.jpg",,,,,,0,1,1,0,0,0,0,0,,,,,,,2014_Oct_02_0139,49.6505030267,Arguments,001,999,
,,,"clear_01.csv","words\clear_is.jpg",,,,,,0,1,1,0,0,1,1,1,,,,,,,2014_Oct_02_0139,49.6505030267,Arguments,001,999,
,,,"clear_01.csv","words\clear_the.jpg",,,,,,0,1,1,0,0,2,2,2,,,,,,,2014_Oct_02_0139,49.6505030267,Arguments,001,999,
,,,"clear_01.csv","words\clear_clear.jpg",,,,,,0,1,1,0,0,3,3,3,,,,,,,2014_Oct_02_0139,49.6505030267,Arguments,001,999,
,,,"clear_01.csv","words\clear_argument.jpg",,,,,,0,1,1,0,0,4,4,4,,,,,,,2014_Oct_02_0139,49.6505030267,Arguments,001,999,
,,,"clear_01.csv",,"This was a well formed argument.",,,,,0,1,1,0,,,,,0,0,0,2,9,1.14808786395,2014_Oct_02_0139,49.6505030267,Arguments,001,999,
,,,"clear_01.csv",,"This argument was unconvincing.",,,,,0,1,1,0,,,,,0,1,1,4,9,0.241837491551,2014_Oct_02_0139,49.6505030267,Arguments,001,999,
,,,"clear_01.csv",,"This argument might be wrong but it was well argued nonetheless.",,,,,0,1,1,0,,,,,0,2,2,3,9,0.100981904925,2014_Oct_02_0139,49.6505030267,Arguments,001,999,
,,,"clear_01.csv",,"This argument was convincing.",,,,,0,1,1,0,,,,,0,3,3,0,9,0.0807401578363,2014_Oct_02_0139,49.6505030267,Arguments,001,999,
,,,"clear_01.csv",,"There were logical flaws in this argument.",,,,,0,1,1,0,,,,,0,4,4,1,9,0.100881228337,2014_Oct_02_0139,49.6505030267,Arguments,001,999,
,,,"clear_01.csv",,,,,,,0,1,1,0,,,,,,,,,,,2014_Oct_02_0139,49.6505030267,Arguments,001,999,
,,,"messy_01.csv","words\messy_this.jpg",,,,,,0,2,2,1,0,0,0,0,,,,,,,2014_Oct_02_0139,49.6505030267,Arguments,001,999,
,,,"messy_01.csv","words\messy_is.jpg",,,,,,0,2,2,1,0,1,1,1,,,,,,,2014_Oct_02_0139,49.6505030267,Arguments,001,999,
,,,"messy_01.csv","words\messy_the.jpg",,,,,,0,2,2,1,0,2,2,2,,,,,,,2014_Oct_02_0139,49.6505030267,Arguments,001,999,
,,,"messy_01.csv","words\messy_messy.jpg",,,,,,0,2,2,1,0,3,3,3,,,,,,,2014_Oct_02_0139,49.6505030267,Arguments,001,999,
,,,"messy_01.csv","words\messy_argument.jpg",,,,,,0,2,2,1,0,4,4,4,,,,,,,2014_Oct_02_0139,49.6505030267,Arguments,001,999,
,,,"messy_01.csv",,"This argument was convincing.",,,,,0,2,2,1,,,,,0,0,0,0,9,1.36960471084,2014_Oct_02_0139,49.6505030267,Arguments,001,999,
,,,"messy_01.csv",,"There were logical flaws in this argument.",,,,,0,2,2,1,,,,,0,1,1,1,9,0.101359955785,2014_Oct_02_0139,49.6505030267,Arguments,001,999,
,,,"messy_01.csv",,"This argument might be wrong but it was well argued nonetheless.",,,,,0,2,2,1,,,,,0,2,2,3,9,0.0610823349571,2014_Oct_02_0139,49.6505030267,Arguments,001,999,
,,,"messy_01.csv",,"This argument was unconvincing.",,,,,0,2,2,1,,,,,0,3,3,4,9,0.362676517905,2014_Oct_02_0139,49.6505030267,Arguments,001,999,
,,,"messy_01.csv",,"This was a well formed argument.",,,,,0,2,2,1,,,,,0,4,4,2,9,0.060672231959,2014_Oct_02_0139,49.6505030267,Arguments,001,999,
,,,"messy_01.csv",,,,,,,0,2,2,1,,,,,,,,,,,2014_Oct_02_0139,49.6505030267,Arguments,001,999,
